Folder: battery_cycling

Note: galvani.yml
name: galvani
channels:
  - defaults
dependencies:
  - ca-certificates=2022.2.1=haa95532_0
  - certifi=2021.10.8=py37haa95532_2
  - openssl=1.1.1m=h2bbff1b_0
  - pip=21.2.4=py37haa95532_0
  - python=3.7.11=h6244533_0
  - setuptools=58.0.4=py37haa95532_0
  - sqlite=3.37.2=h2bbff1b_0
  - vc=14.2=h21ff451_1
  - vs2015_runtime=14.27.29016=h5e58377_2
  - wheel=0.37.1=pyhd3eb1b0_0
  - wincertstore=0.2=py37haa95532_2
  - pip:
    - cycler==0.11.0
    - fonttools==4.29.1
    - galvani==0.2.1
    - kiwisolver==1.3.2
    - matplotlib==3.5.1
    - numpy==1.21.5
    - opencv-python==4.5.5.62
    - packaging==21.3
    - pandas==1.3.5
    - pillow==9.0.1
    - pyparsing==3.0.7
    - python-dateutil==2.8.2
    - pytz==2021.3
    - scipy==1.7.3
    - six==1.16.0
prefix: C:\Users\eschl\anaconda3\envs\galvani

Note: README.md
# battery_cycling
Script(s) to extract battery cycling data from Biologic output file (*.mpr) and make plots

File: 220218-PanasonicBR2032-full-discharge-C50_C06.txt
time/s	mode	Capacity/mA.h	(Q-Qo)/mA.h	Ewe/V	cycle number
0.000000000000000E+000	3	0.000000000000000E+000	0.000000000000000E+000	3.36906	0.000000000000000E+000
280	1	0.284536	-0.284536	2.36836	0.000000000000000E+000
880	1	0.916834	-0.916834	2.41943	0.000000000000000E+000
1480	1	1.54914	-1.54914	2.43293	0.000000000000000E+000
2080	1	2.18144	-2.18144	2.43957	0.000000000000000E+000
2680	1	2.81373	-2.81373	2.44352	0.000000000000000E+000
3280	1	3.44603	-3.44603	2.44572	0.000000000000000E+000
3880	1	4.07833	-4.07833	2.44677	0.000000000000000E+000
4480	1	4.71062	-4.71062	2.44725	0.000000000000000E+000
5080	1	5.34292	-5.34292	2.44877	0.000000000000000E+000
5680	1	5.97522	-5.97522	2.44986	0.000000000000000E+000
6280	1	6.60752	-6.60752	2.45187	0.000000000000000E+000
6880	1	7.23982	-7.23982	2.45231	0.000000000000000E+000
7480	1	7.87213	-7.87213	2.45231	0.000000000000000E+000
8080	1	8.50443	-8.50443	2.45315	0.000000000000000E+000
8680	1	9.13674	-9.13674	2.45275	0.000000000000000E+000
9280	1	9.76904	-9.76904	2.45269	0.000000000000000E+000
9880	1	10.4013	-10.4013	2.45345	0.000000000000000E+000
10480	1	11.0336	-11.0336	2.45395	0.000000000000000E+000
11080	1	11.6659	-11.6659	2.45553	0.000000000000000E+000
11680	1	12.2983	-12.2983	2.45729	0.000000000000000E+000
12280	1	12.9306	-12.9306	2.45756	0.000000000000000E+000
12880	1	13.5629	-13.5629	2.45855	0.000000000000000E+000
13480	1	14.1952	-14.1952	2.45893	0.000000000000000E+000
14080	1	14.8275	-14.8275	2.45948	0.000000000000000E+000
14680	1	15.4598	-15.4598	2.45941	0.000000000000000E+000
15280	1	16.0921	-16.0921	2.45931	0.000000000000000E+000
15880	1	16.7244	-16.7244	2.45943	0.000000000000000E+000
16480	1	17.3567	-17.3567	2.45885	0.000000000000000E+000
17080	1	17.989	-17.989	2.45906	0.000000000000000E+000
17680	1	18.6213	-18.6213	2.45868	0.000000000000000E+000
18280	1	19.2536	-19.2536	2.45905	0.000000000000000E+000
18880	1	19.8859	-19.8859	2.45882	0.000000000000000E+000
19480	1	20.5182	-20.5182	2.45885	0.000000000000000E+000
20080	1	21.1505	-21.1505	2.45903	0.000000000000000E+000
20680	1	21.7828	-21.7828	2.45895	0.000000000000000E+000
21280	1	22.4151	-22.4151	2.45901	0.000000000000000E+000
21880	1	23.0474	-23.0474	2.45857	0.000000000000000E+000
22480	1	23.6797	-23.6797	2.4584	0.000000000000000E+000
23080	1	24.312	-24.312	2.45838	0.000000000000000E+000
23680	1	24.9443	-24.9443	2.45817	0.000000000000000E+000
24280	1	25.5766	-25.5766	2.45805	0.000000000000000E+000
24880	1	26.2089	-26.2089	2.4578	0.000000000000000E+000
25480	1	26.8412	-26.8412	2.4578	0.000000000000000E+000
26080	1	27.4735	-27.4735	2.45758	0.000000000000000E+000
26680	1	28.1058	-28.1058	2.45725	0.000000000000000E+000
27280	1	28.7381	-28.7381	2.45675	0.000000000000000E+000
27880	1	29.3704	-29.3704	2.45656	0.000000000000000E+000
28480	1	30.0027	-30.0027	2.45622	0.000000000000000E+000
29080	1	30.635	-30.635	2.45553	0.000000000000000E+000
29680	1	31.2673	-31.2673	2.45509	0.000000000000000E+000
30280	1	31.8996	-31.8996	2.45444	0.000000000000000E+000
30880	1	32.5319	-32.5319	2.45395	0.000000000000000E+000
31480	1	33.1642	-33.1642	2.45351	0.000000000000000E+000
32080	1	33.7965	-33.7965	2.45311	0.000000000000000E+000
32680	1	34.4288	-34.4288	2.45252	0.000000000000000E+000
33280	1	35.0611	-35.0611	2.45204	0.000000000000000E+000
33880	1	35.6934	-35.6934	2.45126	0.000000000000000E+000
34480	1	36.3257	-36.3257	2.45019	0.000000000000000E+000
35080	1	36.958	-36.958	2.44959	0.000000000000000E+000
35680	1	37.5903	-37.5903	2.44784	0.000000000000000E+000
36280	1	38.2226	-38.2226	2.44709	0.000000000000000E+000
36880	1	38.8549	-38.8549	2.44599	0.000000000000000E+000
37480	1	39.4872	-39.4872	2.44429	0.000000000000000E+000
38080	1	40.1195	-40.1195	2.44282	0.000000000000000E+000
38680	1	40.7518	-40.7518	2.44217	0.000000000000000E+000
39280	1	41.3841	-41.3841	2.44056	0.000000000000000E+000
39880	1	42.0164	-42.0164	2.43909	0.000000000000000E+000
40480	1	42.6487	-42.6487	2.43757	0.000000000000000E+000
41080	1	43.281	-43.281	2.43642	0.000000000000000E+000
41680	1	43.9133	-43.9133	2.43468	0.000000000000000E+000
42280	1	44.5456	-44.5456	2.4322	0.000000000000000E+000
42880	1	45.1779	-45.1779	2.43023	0.000000000000000E+000
43480	1	45.8102	-45.8102	2.42836	0.000000000000000E+000
44080	1	46.4425	-46.4425	2.42598	0.000000000000000E+000
44680	1	47.0748	-47.0748	2.42399	0.000000000000000E+000
45280	1	47.7071	-47.7071	2.42185	0.000000000000000E+000
45880	1	48.3394	-48.3394	2.41973	0.000000000000000E+000
46480	1	48.9717	-48.9717	2.4176	0.000000000000000E+000
47080	1	49.604	-49.604	2.41561	0.000000000000000E+000
47680	1	50.2363	-50.2363	2.41319	0.000000000000000E+000
48280	1	50.8686	-50.8686	2.41095	0.000000000000000E+000
48880	1	51.5009	-51.5009	2.40872	0.000000000000000E+000
49480	1	52.1332	-52.1332	2.40648	0.000000000000000E+000
50080	1	52.7655	-52.7655	2.40417	0.000000000000000E+000
50680	1	53.3978	-53.3978	2.40204	0.000000000000000E+000
51280	1	54.0301	-54.0301	2.39965	0.000000000000000E+000
51880	1	54.6624	-54.6624	2.39745	0.000000000000000E+000
52480	1	55.2947	-55.2947	2.39514	0.000000000000000E+000
53080	1	55.927	-55.927	2.39209	0.000000000000000E+000
53680	1	56.5593	-56.5593	2.39031	0.000000000000000E+000
54280	1	57.1916	-57.1916	2.38779	0.000000000000000E+000
54880	1	57.8239	-57.8239	2.3855	0.000000000000000E+000
55480	1	58.4562	-58.4562	2.3829	0.000000000000000E+000
56080	1	59.0885	-59.0885	2.3804	0.000000000000000E+000
56680	1	59.7208	-59.7208	2.37823	0.000000000000000E+000
57280	1	60.3531	-60.3531	2.37603	0.000000000000000E+000
57880	1	60.9854	-60.9854	2.37338	0.000000000000000E+000
58480	1	61.6177	-61.6177	2.37078	0.000000000000000E+000
59080	1	62.25	-62.25	2.36847	0.000000000000000E+000
59680	1	62.8823	-62.8823	2.3666	0.000000000000000E+000
60280	1	63.5146	-63.5146	2.36479	0.000000000000000E+000
60880	1	64.1469	-64.1469	2.36238	0.000000000000000E+000
61480	1	64.7792	-64.7792	2.36057	0.000000000000000E+000
62080	1	65.4115	-65.4115	2.35868	0.000000000000000E+000
62680	1	66.0438	-66.0438	2.35661	0.000000000000000E+000
63280	1	66.6761	-66.6761	2.35524	0.000000000000000E+000
63880	1	67.3084	-67.3084	2.3539	0.000000000000000E+000
64480	1	67.9407	-67.9407	2.35211	0.000000000000000E+000
65080	1	68.573	-68.573	2.35119	0.000000000000000E+000
65680	1	69.2053	-69.2053	2.34999	0.000000000000000E+000
66280	1	69.8376	-69.8376	2.34865	0.000000000000000E+000
66880	1	70.4699	-70.4699	2.34743	0.000000000000000E+000
67480	1	71.1022	-71.1022	2.34669	0.000000000000000E+000
68080	1	71.7345	-71.7345	2.34562	0.000000000000000E+000
68680	1	72.3668	-72.3668	2.34441	0.000000000000000E+000
69280	1	72.9991	-72.9991	2.34344	0.000000000000000E+000
69880	1	73.6314	-73.6314	2.34142	0.000000000000000E+000
70480	1	74.2637	-74.2637	2.34056	0.000000000000000E+000
71080	1	74.896	-74.896	2.33985	0.000000000000000E+000
71680	1	75.5283	-75.5283	2.33827	0.000000000000000E+000
72280	1	76.1607	-76.1607	2.33767	0.000000000000000E+000
72880	1	76.793	-76.793	2.33704	0.000000000000000E+000
73480.1	1	77.4253	-77.4253	2.33565	0.000000000000000E+000
74080.1	1	78.0576	-78.0576	2.33527	0.000000000000000E+000
74680.1	1	78.6899	-78.6899	2.3342	0.000000000000000E+000
75280.1	1	79.3222	-79.3222	2.33342	0.000000000000000E+000
75880.1	1	79.9545	-79.9545	2.33227	0.000000000000000E+000
76480.1	1	80.5868	-80.5868	2.33034	0.000000000000000E+000
77080.1	1	81.2191	-81.2191	2.32796	0.000000000000000E+000
77680.1	1	81.8514	-81.8514	2.32549	0.000000000000000E+000
78280.1	1	82.4837	-82.4837	2.32303	0.000000000000000E+000
78880.1	1	83.116	-83.116	2.3207	0.000000000000000E+000
79480.1	1	83.7483	-83.7483	2.31837	0.000000000000000E+000
80080.1	1	84.3807	-84.3806	2.31463	0.000000000000000E+000
80680.1	1	85.013	-85.013	2.31001	0.000000000000000E+000
81280.1	1	85.6453	-85.6453	2.30537	0.000000000000000E+000
81880.1	1	86.2776	-86.2776	2.30046	0.000000000000000E+000
82480.1	1	86.9099	-86.9099	2.29414	0.000000000000000E+000
83080.1	1	87.5422	-87.5422	2.2892	0.000000000000000E+000
83680.1	1	88.1745	-88.1745	2.28185	0.000000000000000E+000
84280.1	1	88.8068	-88.8068	2.27459	0.000000000000000E+000
84880.1	1	89.4391	-89.4391	2.26541	0.000000000000000E+000
85480.1	1	90.0714	-90.0714	2.25622	0.000000000000000E+000
86080.1	1	90.7037	-90.7037	2.24588	0.000000000000000E+000
86680.1	1	91.336	-91.336	2.23415	0.000000000000000E+000
87280.1	1	91.9683	-91.9683	2.22241	0.000000000000000E+000
87880.1	1	92.6006	-92.6006	2.2088	0.000000000000000E+000
88480.1	1	93.2329	-93.2329	2.19203	0.000000000000000E+000
89080.2	1	93.8652	-93.8652	2.17466	0.000000000000000E+000
89680.2	1	94.4975	-94.4975	2.15326	0.000000000000000E+000
90280.2	1	95.1298	-95.1298	2.12916	0.000000000000000E+000
90880.2	1	95.7621	-95.7621	2.10407	0.000000000000000E+000
91480.2	1	96.3944	-96.3944	2.07834	0.000000000000000E+000
92080.2	1	97.0267	-97.0267	2.04617	0.000000000000000E+000
92680.2	1	97.659	-97.659	2.00592	0.000000000000000E+000
93280.2	1	98.2913	-98.2913	1.95989	0.000000000000000E+000
93880.2	1	98.9236	-98.9236	1.90643	0.000000000000000E+000
94480.2	1	99.5559	-99.5559	1.84594	0.000000000000000E+000
95080.2	1	100.188	-100.188	1.77479	0.000000000000000E+000
95680.2	1	100.82	-100.82	1.69681	0.000000000000000E+000
96280.2	1	101.453	-101.453	1.60312	0.000000000000000E+000
96880.2	1	102.085	-102.085	1.50526	0.000000000000000E+000
97023.7	3	102.111	-102.111	2.56066	0.000000000000000E+000
98303.5	3	102.111	-102.111	2.75695	0.000000000000000E+000
100703	3	102.111	-102.111	2.84825	0.000000000000000E+000
103103	3	102.111	-102.111	2.8948	0.000000000000000E+000
105503	3	102.111	-102.111	2.92608	0.000000000000000E+000
107903	3	102.111	-102.111	2.94908	0.000000000000000E+000
110304	3	102.111	-102.111	2.96663	0.000000000000000E+000
112704	3	102.111	-102.111	2.98112	0.000000000000000E+000
115104	3	102.111	-102.111	2.99309	0.000000000000000E+000
117504	3	102.111	-102.111	3.00323	0.000000000000000E+000
119904	3	102.111	-102.111	3.01236	0.000000000000000E+000
122304	3	102.111	-102.111	3.02043	0.000000000000000E+000
122831	3	102.111	-102.111	3.02209	0.000000000000000E+000